Folder: LaTeX/Polymers lab/2/DSC (part 4)

File: !^PME2019G1 PET tt L=72,3.txt
              0              0       0.025248              0      0.0167193
             21             21        6.80298              7      -0.131996
             42             42         13.451             14      -0.372228
             63             63        20.4214             21       -0.39719
             84             84        27.4191             28      -0.403859
            105            105        34.4147             35      -0.412218
            126            126        41.4107             42      -0.420587
            147            147        48.4132             49       -0.42457
            168            168        55.4227             56      -0.423526
            189            189        62.4305             63      -0.423842
            210            210        69.4342             70      -0.427278
            231            231        76.4344             77      -0.433582
            252            252         83.424             84      -0.448408
            273            273        90.4113             91      -0.465511
            294            294        97.4026             98      -0.480018
            315            315        104.388            105       -0.49298
            336            336        111.373            112      -0.504175
            357            357        118.362            119      -0.513187
            378            378        125.351            126       -0.52139
            399            399        132.342            133      -0.529137
            420            420        139.333            140      -0.536967
            441            441        146.325            147      -0.544315
            462            462        153.318            154      -0.551539
            483            483        160.312            161      -0.558884
            504            504        167.306            168      -0.565756
            525            525          174.3            175      -0.573046
            546            546        181.295            182      -0.580821
            567            567         188.29            189      -0.588399
            588            588        195.285            196       -0.59683
            609            609        202.277            203      -0.608236
            630            630        209.266            210       -0.62297
            651            651         216.25            217      -0.643086
            672            672        223.226            224      -0.670328
            693            693        230.187            231      -0.712291
            714            714        237.114            238      -0.785828
            735            735        243.971            245      -0.924899
            756            756        250.721            252       -1.16578
            777            777        257.906            259       -1.01273
            798            798        265.242            266      -0.712749
            819            819        272.321            273      -0.650015
            840            840        279.343            280       -0.64097
            861            861        286.359            287      -0.637456
            882            882        293.374            294       -0.63629
            903            903        298.396            299      -0.623456
            924            924        292.313            292       0.315965
            945            945        285.628            285       0.621354
            966            966        278.708            278       0.686425
            987            987        271.714            271       0.679792
           1008           1008        264.729            264       0.682376
           1029           1029        257.725            257       0.668199
           1050           1050        250.723            250       0.656254
           1071           1071         243.73            243       0.653962
           1092           1092        236.732            236       0.647198
           1113           1113        229.739            229       0.645337
           1134           1134        222.741            222       0.639936
           1155           1155        215.734            215       0.627232
           1176           1176        208.749            208       0.634565
           1197           1197        201.754            201       0.633455
           1218           1218        194.746            194       0.621257
           1239           1239        187.766            187       0.633623
           1260           1260        180.766            180       0.629568
           1281           1281        173.909            173       0.743655
           1302           1302         167.21            166       0.985013
           1323           1323        160.321            159        1.07113
           1344           1344         153.11            152       0.897251
           1365           1365        145.898            145        0.72397
           1386           1386        138.804            138        0.64691
           1407           1407        131.754            131       0.606517
           1428           1428        124.717            124       0.576459
           1449           1449        117.711            117          0.572
           1470           1470        110.695            110       0.559542
           1491           1491        103.683            103       0.550621
           1512           1512         96.678             96        0.54229
           1533           1533        89.6733             89       0.529981
           1554           1554        82.6652             82       0.515499
           1575           1575        75.6403             75        0.48874
           1596           1596        68.6277             68       0.472074
           1617           1617        61.6043             61        0.44791
           1638           1638         54.607             54       0.443574
           1659           1659        47.5953             47       0.429027
           1680           1680        40.5855             40       0.416283
           1701           1701        33.5866             33       0.411608
           1722           1722        26.5842             26       0.404642
           1743           1743        19.5804             19       0.397024
           1764           1764        12.5619             12       0.379652
           1785           1785        5.57091              5       0.381204
           1806           1806        2.69233              2       0.459973
           1827           1827        8.85227              9     -0.0993074
           1848           1848        15.5361             16      -0.315656
           1869           1869         22.461             23      -0.371348
           1890           1890        29.4453             30      -0.387053
           1911           1911        36.4412             37      -0.395004
           1932           1932        43.4399             44      -0.401285
           1953           1953         50.439             51      -0.407501
           1974           1974        57.4378             58      -0.414165
           1995           1995        64.4355             65      -0.421838
           2016           2016        71.4326             72       -0.43032
           2037           2037        78.4245             79      -0.443086
           2058           2058        85.4009             86      -0.468403
           2079           2079        92.3836             93      -0.489602
           2100           2100        99.3762            100      -0.503555
           2121           2121        106.363            107      -0.512846
           2142           2142        113.353            114        -0.5207
           2163           2163        120.343            121      -0.527785
           2184           2184        127.336            128      -0.533808
           2205           2205        134.328            135      -0.540746
           2226           2226        141.321            142      -0.546931
           2247           2247        148.315            149      -0.553352
           2268           2268        155.306            156      -0.561769
           2289           2289        162.297            163      -0.571462
           2310           2310        169.291            170       -0.57887
           2331           2331        176.288            177      -0.583934
           2352           2352         183.29            184      -0.585757
           2373           2373        190.291            191      -0.588736
           2394           2394        197.286            198      -0.597108
           2415           2415        204.277            205      -0.610069
           2436           2436        211.264            212      -0.626884
           2457           2457        218.244            219      -0.650333
           2478           2478        225.207            226      -0.688757
           2499           2499         232.15            233       -0.74732
           2520           2520        239.065            240        -0.8327
           2541           2541         245.89            247       -1.00124
           2562           2562        252.799            254       -1.09901
           2583           2583        260.154            261      -0.786064
           2604           2604        267.308            268      -0.653637
           2625           2625        274.343            275      -0.632341
           2646           2646         281.36            282      -0.627716
           2667           2667        288.373            289      -0.626863
           2688           2688        295.387            296      -0.626898
           2699           2699         299.06        299.667      -0.626983

________________________________________________________________________________
Not signed                                                        STARe SW 12.00