Folder: LaTeX/Polymers lab/2/DSC

File: !^ESERC  PLA pent press L=77,1.txt
              0              0      0.0236884              0      0.0109441
             14             14        4.25357        4.66667      -0.192334
             28             28        8.40414        9.33333      -0.436042
             42             42        12.9102             14      -0.515536
             56             56        17.5448        18.6667      -0.535079
             70             70        22.2072        23.3333      -0.541603
             84             84        26.8704             28      -0.547858
             98             98        31.5328        32.6667      -0.554707
            112            112        36.1923        37.3333      -0.563131
            126            126        40.8466             42      -0.574334
            140            140        45.4958        46.6667       -0.58831
            154            154        50.1301        51.3333      -0.610142
            168            168        54.7613             56      -0.634068
            182            182        59.3968        60.6667      -0.656179
            196            196        64.0363        65.3333      -0.676743
            210            210         68.686             70      -0.692326
            224            224        73.3459        74.6667      -0.702826
            238            238        78.0056        79.3333      -0.713702
            252            252        82.6634             84       -0.72588
            266            266        87.3192        88.6667      -0.739462
            280            280        91.9725        93.3333      -0.754688
            294            294        96.6247             98      -0.770937
            308            308        101.267        102.667      -0.787386
            322            322        105.905        107.333      -0.802605
            336            336        110.546            112      -0.816074
            350            350         115.19        116.667      -0.828286
            364            364        119.833        121.333      -0.841173
            378            378        124.467            126      -0.859551
            392            392        129.071        130.667      -0.895329
            406            406        133.656        135.333      -0.941647
            420            420        138.238            140      -0.990158
            434            434        142.783        144.667       -1.05934
            448            448        147.227        149.333       -1.18673
            462            462        151.754            154       -1.26787
            476            476          156.5        158.667       -1.22544
            490            490        161.482        163.333       -1.04985
            504            504        166.374            168      -0.924601
            518            518        171.155        172.667      -0.862246
            532            532        175.885        177.333      -0.829366
            546            546         180.59            182      -0.810347
            560            560        185.281        186.667       -0.79962
            574            574        189.964        191.333      -0.793939
            588            588         194.64            196      -0.791963
            602            602        198.337        199.333      -0.582642
            616            616        194.886        194.667       0.127325
            630            630        190.942            190       0.545321
            644            644        186.728        185.333       0.804043
            658            658        182.123        180.667       0.836266
            672            672        177.374            176       0.785633
            686            686        172.709        171.333         0.7841
            700            700        168.044        166.667       0.782851
            714            714        163.394            162       0.790055
            728            728        158.721        157.333       0.784395
            742            742        154.048        152.667       0.779389
            756            756        149.379            148        0.77654
            770            770        144.709        143.333       0.773291
            784            784        140.047        138.667       0.775307
            798            798        135.381            134       0.774829
            812            812        130.704        129.333       0.769058
            826            826        126.018        124.667       0.757786
            840            840        121.357            120       0.761176
            854            854        116.693        115.333       0.763058
            868            868        112.021        110.667        0.76069
            882            882        107.351            106       0.759195
            896            896         102.68        101.333       0.758189
            910            910        98.0128        96.6667       0.752269
            924            924        93.3529             92       0.748036
            938            938        88.7041        87.3333       0.750003
            952            952        84.0486        82.6667       0.748323
            966            966        79.3907             78       0.745431
            980            980        74.7287        73.3333       0.740432
            994            994        70.0681        68.6667       0.736316
           1008           1008         65.422             64       0.739904
           1022           1022         60.755        59.3333        0.73265
           1036           1036        56.0762        54.6667       0.719563
           1050           1050        51.3599             50        0.68779
           1064           1064        46.6071        45.3333       0.638352
           1078           1078        41.8825        40.6667       0.603877
           1092           1092        37.1871             36       0.584367
           1106           1106        32.4999        31.3333       0.569264
           1120           1120        27.8261        26.6667       0.560992
           1134           1134        23.1455             22       0.549592
           1148           1148        18.4754        17.3333       0.543406
           1162           1162        13.8139        12.6667       0.541463
           1176           1176        9.14181              8       0.534606
           1190           1190        4.46145        3.33333       0.524069
           1204           1204         2.0222        1.33333       0.318958
           1218           1218        5.70176              6      -0.139167
           1232           1232        9.84701        10.6667       -0.38552
           1246           1246        14.3248        15.3333      -0.478215
           1260           1260        18.9327             20       -0.51025
           1274           1274        23.5825        24.6667      -0.522657
           1288           1288        28.2415        29.3333      -0.530851
           1302           1302        32.9059             34      -0.536601
           1316           1316        37.5711        38.6667      -0.542039
           1330           1330        42.2361        43.3333      -0.547736
           1344           1344        46.8984             48      -0.554976
           1358           1358         51.551        52.6667      -0.567251
           1372           1372        56.1752        57.3333       -0.59443
           1386           1386        60.7125             62      -0.667155
           1400           1400        65.3053        66.6667      -0.712304
           1414           1414        69.9686        71.3333      -0.721099
           1428           1428        74.6395             76      -0.726085
           1442           1442        79.3125        80.6667      -0.730053
           1456           1456         83.988        85.3333       -0.73278
           1470           1470        88.6648             90      -0.734929
           1484           1484        93.3414        94.6667      -0.737236
           1498           1498        98.0187        99.3333      -0.739248
           1512           1512        102.686            104      -0.739328
           1526           1526        107.357        108.667      -0.735864
           1540           1540        112.038        113.333      -0.726763
           1554           1554        116.736            118       -0.70924
           1568           1568        121.443        122.667      -0.686434
           1582           1582        126.147        127.333      -0.665517
           1596           1596        130.826            132      -0.658664
           1610           1610         135.47        136.667      -0.671728
           1624           1624         140.09        141.333      -0.698502
           1638           1638        144.688            146      -0.738032
           1652           1652        149.119        150.667      -0.872366
           1666           1666        153.626        155.333      -0.964357
           1680           1680        158.443            160      -0.881585
           1694           1694        163.238        164.667       -0.81067
           1708           1708        167.954        169.333      -0.785245
           1722           1722        172.637            174      -0.778454
           1736           1736         177.31        178.667      -0.777398
           1750           1750        181.981        183.333      -0.778023
           1764           1764        186.652            188      -0.778846
           1778           1778        191.323        192.667      -0.780057
           1792           1792        195.994        197.333      -0.781554
           1799           1799        198.329        199.667      -0.782146

________________________________________________________________________________
Not signed                                                        STARe SW 12.00

File: !^ESERC bicchiere PLA L=69,5.txt
              0              0      0.0170014              0      0.0115471
             14             14        4.43114        4.66667      -0.161208
             28             28        8.82297        9.33333      -0.352084
             42             42        13.4168             14      -0.405573
             56             56         18.081        18.6667      -0.410645
             70             70         22.751        23.3333       -0.41171
             84             84        27.4189             28      -0.414332
             98             98        32.0847        32.6667      -0.418551
            112            112        36.7502        37.3333      -0.423063
            126            126         41.416             42      -0.427486
            140            140        46.0823        46.6667      -0.431633
            154            154        50.7465        51.3333      -0.437465
            168            168        55.4079             56      -0.445551
            182            182        60.0574        60.6667      -0.462819
            196            196        64.5407        65.3333      -0.607931
            210            210         69.008             70      -0.768383
            224            224        73.8045        74.6667      -0.674477
            238            238        78.5882        79.3333      -0.588838
            252            252        83.3458             84       -0.52229
            266            266        88.0831        88.6667      -0.470758
            280            280        92.7651        93.3333      -0.463309
            294            294        97.4342             98      -0.466258
            308            308        102.101        102.667      -0.468323
            322            322        106.759        107.333      -0.474237
            336            336         111.41            112      -0.486622
            350            350        116.052        116.667      -0.506843
            364            364        120.685        121.333      -0.534476
            378            378        125.312            126      -0.567288
            392            392        129.932        130.667      -0.605936
            406            406        134.544        135.333      -0.651356
            420            420        139.113            140      -0.732441
            434            434        143.497        144.667      -0.967162
            448            448        147.904        149.333       -1.18376
            462            462        152.713            154       -1.06776
            476            476        157.727        158.667      -0.781791
            490            490        162.513        163.333      -0.683513
            504            504        167.217            168      -0.654223
            518            518        171.894        172.667      -0.648117
            532            532        176.565        177.333      -0.646496
            546            546        181.235            182      -0.646605
            560            560        185.904        186.667       -0.64724
            574            574        190.573        191.333      -0.648142
            588            588        195.242            196      -0.648714
            602            602        198.831        199.333      -0.431785
            616            616         194.88        194.667       0.182108
            630            630        190.713            190       0.607104
            644            644         186.21        185.333       0.742948
            658            658        181.445        180.667       0.657151
            672            672        176.795            176       0.668599
            686            686        172.144        171.333       0.679331
            700            700        167.473        166.667       0.673695
            714            714        162.803            162       0.668929
            728            728        158.147        157.333       0.676429
            742            742        153.474        152.667       0.669357
            756            756          148.8            148       0.662421
            770            770        144.126        143.333       0.655051
            784            784        139.461        138.667       0.656078
            798            798        134.796            134       0.656722
            812            812         130.12        129.333       0.648413
            826            826        125.451        124.667       0.646986
            840            840        120.785            120       0.646884
            854            854        116.115        115.333       0.644667
            868            868        111.442        110.667       0.639982
            882            882        106.769            106       0.635362
            896            896        102.102        101.333       0.635925
            910            910        97.4421        96.6667       0.637098
            924            924        92.7788             92       0.633001
            938            938        88.1149        87.3333       0.628652
            952            952        83.4508        82.6667       0.624227
            966            966        78.7877             78       0.620686
            980            980        74.1305        73.3333       0.621884
            994            994        69.4696        68.6667       0.620181
           1008           1008        64.8121             64       0.621173
           1022           1022          60.15        59.3333        0.61867
           1036           1036        55.4628        54.6667       0.597455
           1050           1050        50.7398             50        0.55007
           1064           1064        46.0174        45.3333       0.503968
           1078           1078        41.3218        40.6667       0.478308
           1092           1092        36.6354             36       0.459817
           1106           1106        31.9548        31.3333       0.445841
           1120           1120        27.2783        26.6667       0.435031
           1134           1134        22.6074             22       0.428428
           1148           1148        17.9368        17.3333       0.422117
           1162           1162         13.265        12.6667       0.415136
           1176           1176         8.5921              8       0.407549
           1190           1190        3.92112        3.33333       0.401417
           1204           1204        1.65086        1.33333       0.216136
           1218           1218        5.78998              6      -0.144071
           1232           1232        10.1998        10.6667      -0.322812
           1246           1246        14.7839        15.3333      -0.382949
           1260           1260        19.4298             20      -0.400763
           1274           1274        24.0909        24.6667      -0.408041
           1288           1288        28.7551        29.3333      -0.413268
           1302           1302        33.4208             34      -0.417584
           1316           1316         38.086        38.6667      -0.422336
           1330           1330        42.7505        43.3333      -0.427754
           1344           1344        47.4116             48      -0.435786
           1358           1358        52.0637        52.6667      -0.450697
           1372           1372         56.687        57.3333      -0.487679
           1386           1386        61.2435             62      -0.576248
           1400           1400        65.8835        66.6667      -0.602422
           1414           1414        70.5538        71.3333      -0.605507
           1428           1428         75.225             76       -0.60802
           1442           1442        79.8968        80.6667       -0.61014
           1456           1456        84.5694        85.3333      -0.611748
           1470           1470        89.2425             90      -0.612953
           1484           1484         93.915        94.6667      -0.614698
           1498           1498        98.5885        99.3333      -0.615688
           1512           1512        103.258            104      -0.613232
           1526           1526        107.934        108.667      -0.605047
           1540           1540         112.62        113.333      -0.588956
           1554           1554        117.312            118      -0.567326
           1568           1568        122.004        122.667      -0.546626
           1582           1582        126.684        127.333      -0.535258
           1596           1596        131.343            132      -0.541603
           1610           1610        135.982        136.667      -0.564806
           1624           1624        140.614        141.333      -0.594698
           1638           1638        145.207            146      -0.656061
           1652           1652        149.655        150.667      -0.838406
           1666           1666        154.355        155.333       -0.81197
           1680           1680        159.167            160      -0.693543
           1694           1694         163.88        164.667      -0.656409
           1708           1708        168.562        169.333      -0.645813
           1722           1722        173.232            174      -0.644311
           1736           1736        177.901        178.667      -0.644777
           1750           1750         182.57        183.333      -0.645768
           1764           1764        187.238            188      -0.647108
           1778           1778        191.907        192.667      -0.648334
           1792           1792        196.576        197.333       -0.64951
           1799           1799        198.911        199.667       -0.64986

________________________________________________________________________________
Not signed                                                        STARe SW 12.00