Folder: LaTeX/Polymers lab/2/TGA

File: ESERCITAZIONI MARZO PNEUMATICO MARANGONI.txt
.003733334 25.24162 10.05957 0.0000000 0.0000000 0.0000000 0.0000000 0.0000000 25.24162 10.05957 10.00012 9.998238 10.05914 25.31174 22.20871 0.0000000 1.163537 2.63039E-4
1.145834 35.47725 10.05931 0.0000000 0.0000000 0.0000000 0.0000000 0.0000000 35.47725 10.05931 10.00165 9.997322 10.05936 35.23641 15.60643 15.72260 4.114498 -3.1558E-4
2.295834 47.14170 10.05932 0.0000000 0.0000000 0.0000000 0.0000000 0.0000000 47.14170 10.05932 9.983905 9.991234 10.05922 46.57760 14.92709 15.18270 4.087382 5.13982E-4
3.445834 58.69125 10.05852 0.0000000 0.0000000 0.0000000 0.0000000 0.0000000 58.69125 10.05852 9.974957 9.993682 10.05838 57.83000 16.05329 16.34030 4.238154 7.59287E-4
4.595833 70.19868 10.05703 0.0000000 0.0000000 0.0000000 0.0000000 0.0000000 70.19868 10.05703 9.981915 10.00734 10.05675 69.06076 17.98728 17.58630 4.387424 .001770528
5.745834 81.68957 10.05453 0.0000000 0.0000000 0.0000000 0.0000000 0.0000000 81.68957 10.05453 9.992462 10.00220 10.05406 80.28394 19.41014 19.41340 4.542957 .002645466
6.895834 93.16653 10.05073 0.0000000 0.0000000 0.0000000 0.0000000 0.0000000 93.16653 10.05073 10.00972 10.01428 10.05000 91.50747 21.23278 21.46810 4.691172 .003828166
8.045834 104.6419 10.04575 0.0000000 0.0000000 0.0000000 0.0000000 0.0000000 104.6419 10.04575 9.984794 10.00770 10.04491 102.7317 22.85648 22.78430 4.823703 .004880756
9.195832 116.1106 10.03948 0.0000000 0.0000000 0.0000000 0.0000000 0.0000000 116.1106 10.03948 9.981512 9.997114 10.03844 113.9601 24.73214 24.77830 4.949909 .005916843
10.34583 127.5778 10.03211 0.0000000 0.0000000 0.0000000 0.0000000 0.0000000 127.5778 10.03211 10.00801 10.02733 10.03090 125.2010 26.44342 26.74160 5.061695 .006771480
11.49584 139.0455 10.02376 0.0000000 0.0000000 0.0000000 0.0000000 0.0000000 139.0455 10.02376 9.989387 10.01032 10.02233 136.4525 28.17656 28.11000 5.168598 .007915049
12.64583 150.5120 10.01393 0.0000000 0.0000000 0.0000000 0.0000000 0.0000000 150.5120 10.01393 9.987922 9.988886 10.01224 147.7139 30.04406 29.80060 5.268802 .009240871
13.79584 161.9736 10.00221 0.0000000 0.0000000 0.0000000 0.0000000 0.0000000 161.9736 10.00221 10.01263 9.969295 10.00020 158.9775 32.40410 32.17220 5.405926 0.01114043
14.94583 173.4394 9.987995 0.0000000 0.0000000 0.0000000 0.0000000 0.0000000 173.4394 9.987995 9.988944 9.958735 9.985574 170.2498 34.27696 33.88460 5.490605 0.01381452
16.09583 184.9068 9.969586 0.0000000 0.0000000 0.0000000 0.0000000 0.0000000 184.9068 9.969586 10.00930 10.01035 9.966282 181.5273 35.73935 35.77080 5.608326 0.01832023
17.24583 196.3697 9.944749 0.0000000 0.0000000 0.0000000 0.0000000 0.0000000 196.3697 9.944749 10.00234 9.999322 9.940128 192.8111 38.44817 37.73190 5.692418 0.02532214
18.39584 207.8421 9.910549 0.0000000 0.0000000 0.0000000 0.0000000 0.0000000 207.8421 9.910549 10.01585 10.00413 9.904341 204.1086 39.50366 39.85510 5.785359 0.03459728
19.54584 219.3042 9.864148 0.0000000 0.0000000 0.0000000 0.0000000 0.0000000 219.3042 9.864148 9.994582 9.994504 9.855738 215.3984 42.27918 41.99380 5.892659 0.04627840
20.69583 230.7709 9.803116 0.0000000 0.0000000 0.0000000 0.0000000 0.0000000 230.7709 9.803116 9.989288 9.980069 9.792199 226.6930 44.13437 43.90750 5.986065 0.06010246
21.84583 242.2356 9.724824 0.0000000 0.0000000 0.0000000 0.0000000 0.0000000 242.2356 9.724824 10.00384 9.996984 9.711051 237.9884 46.57637 46.13040 6.062160 0.07593626
22.99583 253.7031 9.628218 0.0000000 0.0000000 0.0000000 0.0000000 0.0000000 253.7031 9.628218 10.00948 9.998598 9.611670 249.2891 48.26134 48.71920 6.185390 0.09086566
24.14584 265.1665 9.516270 0.0000000 0.0000000 0.0000000 0.0000000 0.0000000 265.1665 9.516270 9.998871 9.996856 9.497531 260.5914 51.10198 50.58890 6.241146 0.1029541
25.29584 276.6346 9.388509 0.0000000 0.0000000 0.0000000 0.0000000 0.0000000 276.6346 9.388509 9.996040 10.00869 9.367688 271.9022 52.93350 53.29460 6.337521 0.1180197
26.44584 288.0952 9.244005 0.0000000 0.0000000 0.0000000 0.0000000 0.0000000 288.0952 9.244005 9.999566 9.993220 9.224074 283.2154 56.07407 55.70970 6.431860 0.1291734
27.59583 299.5575 9.096031 0.0000000 0.0000000 0.0000000 0.0000000 0.0000000 299.5575 9.096031 9.994531 10.00053 9.076205 294.5258 58.42118 58.49470 6.522176 0.1242467
28.74583 311.0222 8.958508 0.0000000 0.0000000 0.0000000 0.0000000 0.0000000 311.0222 8.958508 10.01746 9.994696 8.938539 305.8459 60.67450 60.95900 6.613256 0.1115274
29.89584 322.4836 8.845390 0.0000000 0.0000000 0.0000000 0.0000000 0.0000000 322.4836 8.845390 10.01322 10.00400 8.830194 317.1622 63.63390 63.78590 6.688946 0.08258092
31.04584 333.9415 8.768401 0.0000000 0.0000000 0.0000000 0.0000000 0.0000000 333.9415 8.768401 10.00514 10.00667 8.758582 328.4797 65.93765 66.49860 6.783040 0.05378232
32.19584 345.3980 8.715776 0.0000000 0.0000000 0.0000000 0.0000000 0.0000000 345.3980 8.715776 9.992187 10.00449 8.708394 339.7616 69.79776 69.64060 6.874531 0.04049612
33.34583 356.8500 8.672624 0.0000000 0.0000000 0.0000000 0.0000000 0.0000000 356.8500 8.672624 9.994432 10.00720 8.666215 351.0808 72.43591 72.36530 6.954343 0.03527716
34.49584 368.2968 8.633492 0.0000000 0.0000000 0.0000000 0.0000000 0.0000000 368.2968 8.633492 10.01185 9.947126 8.627420 362.3990 75.67645 75.47420 7.052442 0.03326245
35.64583 379.7927 8.488350 0.0000000 0.0000000 0.0000000 0.0000000 0.0000000 379.7927 8.488350 10.01176 9.898641 8.482819 373.7482 77.27660 78.48620 7.121472 0.3093105
36.79584 391.2497 8.132300 0.0000000 0.0000000 0.0000000 0.0000000 0.0000000 391.2497 8.132300 10.01216 10.00245 8.128882 385.1862 80.84604 80.98160 7.196394 0.2760899
37.94584 402.6460 7.821024 0.0000000 0.0000000 0.0000000 0.0000000 0.0000000 402.6460 7.821025 9.977805 9.996172 7.817340 396.4311 86.82355 85.21869 7.300436 0.2764582
39.09583 414.0411 7.462731 0.0000000 0.0000000 0.0000000 0.0000000 0.0000000 414.0411 7.462731 9.998524 10.00425 7.465687 407.6705 86.42920 87.35000 7.336561 0.3616654
40.24584 425.4711 7.018612 0.0000000 0.0000000 0.0000000 0.0000000 0.0000000 425.4711 7.018612 9.976600 10.00509 7.024487 419.0276 94.87447 96.06480 7.528516 0.4553670
41.39583 436.9704 6.436972 0.0000000 0.0000000 0.0000000 0.0000000 0.0000000 436.9704 6.436972 10.00352 10.00491 6.445090 430.4422 96.18976 97.80380 7.588239 0.5230069
42.54584 448.3798 5.830351 0.0000000 0.0000000 0.0000000 0.0000000 0.0000000 448.3798 5.830351 9.992806 9.982340 5.838844 442.0738 105.5416 99.58410 7.589994 0.5351551
43.69584 459.8244 5.210717 0.0000000 0.0000000 0.0000000 0.0000000 0.0000000 459.8244 5.210717 10.00660 10.00687 5.219724 453.4068 105.8814 104.9731 7.758437 0.5411658
44.84583 471.2252 4.614042 0.0000000 0.0000000 0.0000000 0.0000000 0.0000000 471.2252 4.614042 9.993524 9.999941 4.620674 464.6072 110.3391 109.9458 7.846007 0.4725634
45.99584 482.6147 4.184480 0.0000000 0.0000000 0.0000000 0.0000000 0.0000000 482.6147 4.184480 10.01462 10.00400 4.180880 475.7035 114.3958 115.3127 7.943511 0.2479935
47.14583 493.9864 4.032563 0.0000000 0.0000000 0.0000000 0.0000000 0.0000000 493.9864 4.032563 10.04507 10.10112 4.020847 486.9761 120.5257 120.4937 8.077239 0.06232836
48.29584 505.4273 3.993446 0.0000000 0.0000000 0.0000000 0.0000000 0.0000000 505.4273 3.993446 10.00341 9.996197 3.985654 498.3078 124.8462 124.9279 8.126890 0.04672384
49.44584 516.8360 3.863224 0.0000000 0.0000000 0.0000000 0.0000000 0.0000000 516.8360 3.863224 9.994376 9.982224 3.850672 509.5994 129.4998 130.0807 8.236532 0.2019827
50.59583 528.2292 3.592826 0.0000000 0.0000000 0.0000000 0.0000000 0.0000000 528.2292 3.592826 10.00241 9.998749 3.587192 520.8828 134.8700 134.9577 8.323530 0.2484512
51.74584 539.6176 3.292571 0.0000000 0.0000000 0.0000000 0.0000000 0.0000000 539.6176 3.292571 10.01703 10.21807 3.288886 532.1757 140.5300 140.3424 8.429769 0.2779302
52.89582 551.0142 2.939118 0.0000000 0.0000000 0.0000000 0.0000000 0.0000000 551.0142 2.939118 10.00118 9.998297 2.939618 543.4644 145.9354 146.0625 8.517730 0.3559846
54.04582 562.4039 2.461787 0.0000000 0.0000000 0.0000000 0.0000000 0.0000000 562.4039 2.461787 10.00329 9.999676 2.467563 554.7452 151.8258 151.5192 8.600782 0.4705772
55.19584 573.7914 1.872125 0.0000000 0.0000000 0.0000000 0.0000000 0.0000000 573.7914 1.872125 10.00006 10.00194 1.882006 566.0715 156.8826 156.9428 8.694205 0.5593449
56.34582 585.1286 1.236070 0.0000000 0.0000000 0.0000000 0.0000000 0.0000000 585.1286 1.236070 10.28916 10.00124 1.245032 577.4316 164.2469 164.2038 8.806418 0.5385839
57.49584 596.4560 0.6708176 0.0000000 0.0000000 0.0000000 0.0000000 0.0000000 596.4560 0.6708176 9.989579 9.904826 0.6752510 588.7919 171.0318 170.9742 8.901069 0.4370609
58.64582 607.7184 0.2796455 0.0000000 0.0000000 0.0000000 0.0000000 0.0000000 607.7184 0.2796455 9.989244 9.997006 0.2662453 599.9749 179.0840 179.3238 9.036262 0.1578789
59.79582 619.0910 0.2190414 0.0000000 0.0000000 0.0000000 0.0000000 0.0000000 619.0910 0.2190414 10.00228 10.00258 0.2180031 611.3365 185.9198 185.9558 9.080421 .007024439
60.94584 630.4234 0.2165360 0.0000000 0.0000000 0.0000000 0.0000000 0.0000000 630.4234 0.2165360 10.00990 9.991609 0.2161285 622.6135 193.5884 193.3600 9.187759 .002273366
62.09582 641.7569 0.2139038 0.0000000 0.0000000 0.0000000 0.0000000 0.0000000 641.7569 0.2139038 10.01504 9.998626 0.2136894 633.9000 200.6156 200.5636 9.322150 .001832912
63.24584 653.0772 0.2123558 0.0000000 0.0000000 0.0000000 0.0000000 0.0000000 653.0772 0.2123558 9.986609 9.995116 0.2122254 645.1816 208.4975 208.0581 9.414726 8.51025E-4
64.39584 664.3934 0.2118148 0.0000000 0.0000000 0.0000000 0.0000000 0.0000000 664.3934 0.2118149 9.983844 9.962274 0.2117554 656.4670 215.9846 215.9527 9.507758 1.36173E-4
65.54582 675.7001 0.2118698 0.0000000 0.0000000 0.0000000 0.0000000 0.0000000 675.7001 0.2118698 9.994572 10.00160 0.2118782 667.7453 224.2703 223.8820 9.613914 -3.8131E-4
66.69582 686.9993 0.2122276 0.0000000 0.0000000 0.0000000 0.0000000 0.0000000 686.9993 0.2122276 10.01380 10.00657 0.2123184 679.0168 232.6662 232.3552 9.713318 -2.6816E-4
67.84582 698.2461 0.2127235 0.0000000 0.0000000 0.0000000 0.0000000 0.0000000 698.2461 0.2127235 9.988797 10.01224 0.2128357 690.2400 241.0392 240.4551 9.805488 -5.0845E-4
67.98750 699.6116 0.2127564 0.0000000 0.0000000 0.0000000 0.0000000 0.0000000 699.6116 0.2127564 9.990218 9.998910 0.2127998 691.6038 241.8234 241.6670 9.826072 -5.7526E-4

File: PME2019 G1 cemento P2.txt
6.66667E-4 22.68768 13.95734 0.0000000 0.0000000 0.0000000 0.0000000 0.0000000 22.68768 13.95734 9.996056 9.992657 13.95762 22.76786 28.36909 0.0000000 1.181283 -6.2298E-4
1.154167 32.91656 13.95683 0.0000000 0.0000000 0.0000000 0.0000000 0.0000000 32.91656 13.95683 9.996019 10.00626 13.95629 32.69947 15.69987 15.26090 4.125293 .002020236
2.312500 44.67475 13.95198 0.0000000 0.0000000 0.0000000 0.0000000 0.0000000 44.67475 13.95198 10.01505 9.994301 13.95095 44.13853 14.47344 14.74460 4.074244 .003972288
3.470833 56.31257 13.94431 0.0000000 0.0000000 0.0000000 0.0000000 0.0000000 56.31257 13.94431 10.00643 10.00363 13.94291 55.48354 16.33672 15.58660 4.214030 .005547313
4.629166 67.90770 13.93391 0.0000000 0.0000000 0.0000000 0.0000000 0.0000000 67.90770 13.93391 9.994508 9.991996 13.93208 66.79929 18.25362 17.49780 4.403972 .007243057
5.787500 79.48790 13.92082 0.0000000 0.0000000 0.0000000 0.0000000 0.0000000 79.48790 13.92082 10.04546 10.00399 13.91858 78.10919 19.22228 19.37410 4.526394 .008975991
6.945832 91.05280 13.90482 0.0000000 0.0000000 0.0000000 0.0000000 0.0000000 91.05280 13.90482 10.00145 10.00228 13.90210 89.41618 20.97014 20.77690 4.681583 0.01096363
8.104168 102.6064 13.88540 0.0000000 0.0000000 0.0000000 0.0000000 0.0000000 102.6064 13.88540 10.02741 10.00472 13.88201 100.7201 23.13828 22.89980 4.810619 0.01344886
9.262500 114.1597 13.86106 0.0000000 0.0000000 0.0000000 0.0000000 0.0000000 114.1597 13.86106 9.993906 9.990462 13.85686 112.0358 24.90283 24.78830 4.983188 0.01674877
10.42083 125.7134 13.83160 0.0000000 0.0000000 0.0000000 0.0000000 0.0000000 125.7134 13.83160 9.997522 10.00585 13.82665 123.3593 26.25194 26.68760 5.065342 0.01982169
11.57916 137.2615 13.79691 0.0000000 0.0000000 0.0000000 0.0000000 0.0000000 137.2615 13.79691 9.993678 9.996181 13.79098 134.6894 28.41366 28.47730 5.178638 0.02332344
12.73750 148.8149 13.75574 0.0000000 0.0000000 0.0000000 0.0000000 0.0000000 148.8149 13.75574 9.998389 10.00264 13.74866 146.0289 29.69708 30.00310 5.257595 0.02827480
13.89583 160.3630 13.70060 0.0000000 0.0000000 0.0000000 0.0000000 0.0000000 160.3630 13.70061 10.00219 10.01977 13.69013 157.3715 31.61130 32.06080 5.389355 0.04056286
15.05417 171.9082 13.64077 0.0000000 0.0000000 0.0000000 0.0000000 0.0000000 171.9082 13.64077 10.00325 9.997997 13.63344 168.7155 33.96262 33.77810 5.508152 0.02863316
16.21250 183.4606 13.60649 0.0000000 0.0000000 0.0000000 0.0000000 0.0000000 183.4606 13.60649 10.00530 9.999759 13.60244 180.0762 35.42450 35.63080 5.614956 0.01625829
17.37083 195.0092 13.58410 0.0000000 0.0000000 0.0000000 0.0000000 0.0000000 195.0092 13.58410 9.975109 10.00312 13.58087 191.4401 37.68610 37.63700 5.697590 0.01275098
18.52917 206.5555 13.56314 0.0000000 0.0000000 0.0000000 0.0000000 0.0000000 206.5555 13.56314 10.00324 10.00062 13.55958 202.8056 39.96117 39.94250 5.797459 0.01409786
19.68750 218.1058 13.53634 0.0000000 0.0000000 0.0000000 0.0000000 0.0000000 218.1058 13.53634 9.979880 9.964395 13.53122 214.1830 41.92285 41.75030 5.872852 0.02067383
20.84583 229.6573 13.49211 0.0000000 0.0000000 0.0000000 0.0000000 0.0000000 229.6573 13.49210 9.994870 9.993394 13.48294 225.5652 43.77981 43.75580 5.968716 0.03753914
22.00417 241.2030 13.39599 0.0000000 0.0000000 0.0000000 0.0000000 0.0000000 241.2030 13.39599 10.01592 10.00010 13.37645 236.9394 46.21910 46.09210 6.064137 0.1093916
23.16250 252.7497 13.19644 0.0000000 0.0000000 0.0000000 0.0000000 0.0000000 252.7497 13.19644 10.00882 9.998101 13.18320 248.3242 48.84006 48.50070 6.158000 0.1312327
24.32083 264.2992 12.98639 0.0000000 0.0000000 0.0000000 0.0000000 0.0000000 264.2992 12.98639 9.993124 10.01166 12.97409 259.7152 50.83731 50.69860 6.238224 0.1361043
25.47916 275.8449 12.74029 0.0000000 0.0000000 0.0000000 0.0000000 0.0000000 275.8449 12.74029 9.999156 9.986844 12.73320 271.1090 53.31055 53.39670 6.350217 0.1691624
26.63750 287.3913 12.43288 0.0000000 0.0000000 0.0000000 0.0000000 0.0000000 287.3913 12.43288 9.990551 10.00816 12.43023 282.5060 55.68548 55.97540 6.438306 0.2133801
27.79584 298.9359 12.05732 0.0000000 0.0000000 0.0000000 0.0000000 0.0000000 298.9359 12.05732 10.01030 10.00808 12.05770 293.9028 58.52232 58.44920 6.527271 0.2469902
28.95416 310.4814 11.63548 0.0000000 0.0000000 0.0000000 0.0000000 0.0000000 310.4814 11.63548 9.999642 10.00016 11.63816 305.3047 61.09898 61.15520 6.614972 0.2794494
30.11250 322.0228 11.14346 0.0000000 0.0000000 0.0000000 0.0000000 0.0000000 322.0228 11.14346 9.998749 10.00118 11.14954 316.7088 63.76685 63.75300 6.699269 0.3396455
31.27084 333.5635 10.52596 0.0000000 0.0000000 0.0000000 0.0000000 0.0000000 333.5635 10.52596 10.00198 10.00773 10.53712 328.1163 66.68202 66.74920 6.786366 0.4366059
32.42916 345.1013 9.710232 0.0000000 0.0000000 0.0000000 0.0000000 0.0000000 345.1013 9.710232 10.01213 9.996728 9.728256 339.5300 69.70671 69.68490 6.872136 0.5869148
33.58750 356.6372 8.623040 0.0000000 0.0000000 0.0000000 0.0000000 0.0000000 356.6372 8.623040 9.999563 10.07029 8.648358 350.9453 72.76828 72.68970 6.967945 0.7662930
34.74584 368.1700 7.241946 0.0000000 0.0000000 0.0000000 0.0000000 0.0000000 368.1700 7.241946 10.00528 10.00296 7.274856 362.3594 75.89446 75.84330 7.044928 0.9400955
35.90417 379.7002 5.636414 0.0000000 0.0000000 0.0000000 0.0000000 0.0000000 379.7002 5.636414 9.997949 9.994319 5.672486 373.7756 79.24566 79.21110 7.136472 1.036647
37.06250 391.2269 3.973505 0.0000000 0.0000000 0.0000000 0.0000000 0.0000000 391.2269 3.973505 10.00472 9.985040 4.007996 385.1872 82.88400 82.77160 7.235372 0.9893920
38.22083 402.7554 2.549056 0.0000000 0.0000000 0.0000000 0.0000000 0.0000000 402.7554 2.549056 9.991144 10.00253 2.573905 396.5956 86.24674 86.30189 7.308454 0.7346078
39.37916 414.2885 1.687415 0.0000000 0.0000000 0.0000000 0.0000000 0.0000000 414.2885 1.687415 10.00013 9.998856 1.694184 408.0714 89.72328 89.76090 7.391249 0.3385375
40.53750 425.8034 1.379889 0.0000000 0.0000000 0.0000000 0.0000000 0.0000000 425.8034 1.379889 9.994272 9.993466 1.365516 419.6074 93.56203 93.74200 7.486272 0.09196984
41.69584 437.2762 1.297302 0.0000000 0.0000000 0.0000000 0.0000000 0.0000000 437.2762 1.297302 9.995801 9.997578 1.292340 430.6774 98.60019 98.25460 7.612005 0.02064116
42.85417 448.8043 1.284633 0.0000000 0.0000000 0.0000000 0.0000000 0.0000000 448.8043 1.284633 9.998425 10.00550 1.283525 442.0938 102.4592 102.4169 7.705504 .004381110
44.01250 460.3090 1.279170 0.0000000 0.0000000 0.0000000 0.0000000 0.0000000 460.3090 1.279170 10.00254 9.995626 1.278623 453.4841 106.6592 106.6667 7.797210 .002383560
45.17084 471.8062 1.275678 0.0000000 0.0000000 0.0000000 0.0000000 0.0000000 471.8062 1.275678 9.993895 10.00971 1.275190 464.8744 111.3967 111.1411 7.896872 .001988087
46.32916 483.3000 1.273451 0.0000000 0.0000000 0.0000000 0.0000000 0.0000000 483.3000 1.273451 9.998936 10.00210 1.273175 476.2654 116.0692 115.8828 7.987372 .001076288
47.48750 494.7892 1.272222 0.0000000 0.0000000 0.0000000 0.0000000 0.0000000 494.7892 1.272222 10.00151 10.00070 1.272112 487.6524 120.8271 120.8646 8.062880 6.33453E-4
48.64583 506.2740 1.272348 0.0000000 0.0000000 0.0000000 0.0000000 0.0000000 506.2740 1.272348 9.990468 9.995653 1.272449 499.0438 125.8998 125.8427 8.170828 -4.3605E-4
49.80416 517.7503 1.271920 0.0000000 0.0000000 0.0000000 0.0000000 0.0000000 517.7503 1.271920 10.00599 10.00749 1.271915 510.4330 131.3024 131.3705 8.263754 1.63285E-4
50.96250 529.2229 1.271406 0.0000000 0.0000000 0.0000000 0.0000000 0.0000000 529.2229 1.271406 10.03659 10.00756 1.271390 521.8232 136.7311 136.5679 8.366866 2.31481E-4
52.12084 540.6896 1.270975 0.0000000 0.0000000 0.0000000 0.0000000 0.0000000 540.6896 1.270975 10.01202 9.998140 1.270940 533.2139 142.2964 142.2269 8.460326 3.09844E-4
53.27918 552.1496 1.270509 0.0000000 0.0000000 0.0000000 0.0000000 0.0000000 552.1496 1.270509 9.995792 10.00006 1.270214 544.6039 148.2460 148.2077 8.555876 3.10754E-4
54.43750 563.6070 1.270201 0.0000000 0.0000000 0.0000000 0.0000000 0.0000000 563.6070 1.270201 9.999579 9.994370 1.270089 555.9922 154.0797 153.7523 8.631499 2.95991E-4
55.59582 575.0568 1.269677 0.0000000 0.0000000 0.0000000 0.0000000 0.0000000 575.0568 1.269677 9.993442 10.00313 1.269536 567.3809 160.1957 159.9386 8.737838 3.54922E-4
56.75416 586.4950 1.269180 0.0000000 0.0000000 0.0000000 0.0000000 0.0000000 586.4950 1.269180 9.999218 10.00800 1.269077 578.7608 166.8920 166.6834 8.803702 2.17955E-4
57.91250 597.9302 1.268835 0.0000000 0.0000000 0.0000000 0.0000000 0.0000000 597.9302 1.268835 10.33248 10.00526 1.268767 590.1435 173.4113 173.4058 8.918838 2.01966E-4
59.07084 609.3610 1.268526 0.0000000 0.0000000 0.0000000 0.0000000 0.0000000 609.3610 1.268526 10.01542 10.00981 1.268443 601.5230 180.2116 180.0599 9.053420 1.43069E-4
60.22918 620.7806 1.268290 0.0000000 0.0000000 0.0000000 0.0000000 0.0000000 620.7806 1.268290 10.00622 9.997930 1.268293 612.8944 187.4641 187.1946 9.140778 1.79335E-4
61.38750 632.1972 1.267920 0.0000000 0.0000000 0.0000000 0.0000000 0.0000000 632.1972 1.267920 10.28377 9.994569 1.267786 624.2650 194.5865 194.6232 9.240882 2.94726E-4
62.54582 643.6063 1.267553 0.0000000 0.0000000 0.0000000 0.0000000 0.0000000 643.6063 1.267553 9.991516 10.00072 1.267523 635.6304 202.1034 202.0416 9.328598 1.96940E-4
63.70418 655.0080 1.267267 0.0000000 0.0000000 0.0000000 0.0000000 0.0000000 655.0080 1.267267 9.998394 10.00817 1.267199 646.9993 209.8413 209.6949 9.422278 1.91172E-4
64.86250 666.4032 1.266970 0.0000000 0.0000000 0.0000000 0.0000000 0.0000000 666.4032 1.266970 10.01850 10.00117 1.266892 658.3640 217.7962 217.6294 9.536422 2.04073E-4
66.02084 677.7924 1.266665 0.0000000 0.0000000 0.0000000 0.0000000 0.0000000 677.7924 1.266665 9.993619 9.975842 1.266590 669.7182 225.8026 225.7253 9.634520 1.65477E-4
67.17918 689.1747 1.266497 0.0000000 0.0000000 0.0000000 0.0000000 0.0000000 689.1747 1.266497 9.994888 10.00420 1.266496 681.0706 234.2805 233.9930 9.728599 1.40720E-5
68.24584 699.5753 1.266564 0.0000000 0.0000000 0.0000000 0.0000000 0.0000000 699.5753 1.266564 9.994637 10.00656 1.266621 691.4524 241.9924 241.7775 9.807776 -4.0288E-5